{"resourceType": "Condition", "id": "1", "subject": {"reference": "Patient/1"}}
{"resourceType": "Condition", "id": "2", "subject": {"reference": "Patient/2"}}
{"resourceType": "Condition", "id": "extra"}
